2theta,kapoio_yliko
175.0032, 4434.013
176.9317, 4464.471
178.8601, 4508.786
180.7886, 4587.709
182.7171, 4659.256
184.6455, 4705.039
186.5740, 4727.510
188.5025, 4759.603
190.4309, 4816.004
192.3594, 4880.960
194.2879, 4933.048
196.2163, 4971.668
198.1448, 5000.027
200.0733, 5016.268
202.0017, 5017.087
203.9302, 5027.395
205.8587, 5055.084
207.7871, 5088.089
209.7156, 5112.631
211.6441, 5127.084
213.5726, 5137.349
215.5010, 5145.543
217.4295, 5149.059
219.3580, 5151.471
221.2864, 5149.170
223.2149, 5148.275
225.1434, 5153.314
227.0718, 5171.389
229.0003, 5187.741
230.9288, 5195.132
232.8572, 5193.952
234.7857, 5203.059
236.7142, 5240.905
238.6426, 5283.491
240.5711, 5307.176
242.4996, 5282.429
244.4280, 5268.215
246.3565, 5282.618
248.2850, 5320.122
250.2134, 5351.076
252.1419, 5365.372
254.0704, 5375.111
255.9988, 5390.054
257.9273, 5412.359
259.8557, 5434.713
261.7842, 5456.928
263.7127, 5478.145
265.6411, 5493.906
267.5696, 5498.614
269.4981, 5502.327
271.4265, 5513.899
273.3550, 5537.156
275.2835, 5552.203
277.2119, 5547.243
279.1404, 5527.353
281.0689, 5521.505
282.9973, 5540.753
284.9258, 5563.373
286.8543, 5579.722
288.7827, 5588.578
290.7112, 5596.530
292.6397, 5605.131
294.5681, 5613.506
296.4966, 5619.818
298.4251, 5621.479
300.3535, 5625.213
302.2820, 5632.903
304.2105, 5644.857
306.1389, 5660.721
308.0674, 5684.257
309.9959, 5709.706
311.9243, 5730.428
313.8528, 5743.120
315.7813, 5757.442
317.7097, 5777.541
319.6382, 5802.995
321.5667, 5824.949
323.4951, 5836.334
325.4236, 5850.521
327.3521, 5875.493
329.2805, 5921.310
331.2090, 5955.105
333.1375, 5964.096
335.0660, 5958.642
336.9944, 5966.655
338.9229, 5999.088
340.8514, 6030.275
342.7798, 6049.996
344.7083, 6053.533
346.6368, 6056.141
348.5652, 6054.667
350.4937, 6054.175
352.4222, 6059.972
354.3506, 6082.969
356.2791, 6091.712
358.2076, 6072.210
360.1360, 6021.534
362.0645, 5982.431
363.9930, 5963.741
365.9214, 5952.756
367.8499, 5937.752
369.7784, 5916.513
371.7068, 5892.463
373.6353, 5867.996
375.5638, 5844.500
377.4922, 5819.936
379.4207, 5796.394
381.3492, 5765.918
383.2776, 5726.714
385.2061, 5677.990
387.1346, 5637.361
389.0630, 5600.021
390.9915, 5564.526
392.9200, 5541.889
394.8484, 5536.986
396.7769, 5529.850
398.7054, 5513.429
400.6339, 5492.642
402.5623, 5478.016
404.4908, 5472.826
406.4193, 5465.034
408.3477, 5453.674
410.2762, 5440.145
412.2047, 5428.526
414.1331, 5414.075
416.0616, 5396.881
417.9901, 5386.313
419.9185, 5383.123
421.8470, 5392.441
423.7755, 5419.549
425.7039, 5457.421
427.6324, 5474.378
429.5609, 5445.438
431.4893, 5421.760
433.4178, 5432.687
435.3463, 5474.437
437.2747, 5502.414
439.2032, 5502.190
441.1317, 5492.960
443.0601, 5487.059
444.9886, 5483.334
446.9171, 5482.375
448.8455, 5484.531
450.7740, 5488.904
452.7025, 5496.142
454.6309, 5510.638
456.5594, 5526.097
458.4879, 5540.436
460.4163, 5553.340
462.3448, 5566.002
464.2733, 5582.685
466.2017, 5598.371
468.1302, 5606.247
470.0587, 5591.140
471.9871, 5591.178
473.9156, 5614.569
475.8441, 5651.980
477.7725, 5688.412
479.7010, 5727.797
481.6295, 5763.566
483.5579, 5794.774
485.4864, 5821.729
487.4149, 5846.551
489.3433, 5859.116
491.2718, 5877.464
493.2003, 5909.189
495.1287, 5953.889
497.0572, 5987.816
498.9857, 6015.687
500.9141, 6036.451
502.8426, 6047.976
504.7711, 6049.025
506.6995, 6051.085
508.6280, 6049.648
510.5565, 6046.973
512.4849, 6052.317
514.4134, 6080.697
516.3419, 6097.574
518.2703, 6092.191
520.1988, 6066.354
522.1273, 6038.197
524.0557, 6008.386
525.9842, 5983.443
527.9127, 5966.357
529.8411, 5961.506
531.7696, 5951.908
533.6981, 5928.690
535.6265, 5898.720
537.5550, 5874.339
539.4835, 5865.138
541.4119, 5865.833
543.3404, 5862.533
545.2689, 5856.711
547.1973, 5868.446
549.1258, 5922.256
551.0543, 5963.221
552.9827, 5969.248
554.9112, 5952.615
556.8397, 5951.133
558.7681, 5963.109
560.6966, 5970.177
562.6251, 5964.303
564.5535, 5957.388
566.4820, 5972.498
568.4105, 6008.389
570.3389, 6036.394
572.2674, 6038.876
574.1959, 6021.745
576.1243, 6023.376
578.0528, 6050.453
579.9813, 6082.957
581.9097, 6093.686
583.8382, 6076.549
585.7667, 6065.839
587.6951, 6078.110
589.6236, 6111.169
591.5521, 6146.998
593.4805, 6178.401
595.4090, 6202.161
597.3375, 6216.827
599.2659, 6230.260
601.1944, 6241.757
603.1229, 6241.719
605.0513, 6246.110
606.9798, 6265.100
608.9083, 6301.975
610.8367, 6329.585
612.7652, 6344.717
614.6937, 6360.825
616.6221, 6388.738
618.5506, 6423.651
620.4791, 6454.785
622.4075, 6478.662
624.3360, 6501.673
626.2645, 6530.924
628.1929, 6573.989
630.1214, 6603.842
632.0499, 6600.468
633.9783, 6590.875
635.9068, 6609.677
637.8353, 6661.850
639.7637, 6712.573
641.6922, 6757.018
643.6207, 6804.416
645.5491, 6854.524
647.4776, 6896.643
649.4061, 6930.960
651.3345, 6950.897
653.2630, 6977.974
655.1915, 7018.989
657.1199, 7069.979
659.0484, 7109.859
660.9769, 7127.924
662.9053, 7141.930
664.8338, 7167.425
666.7623, 7206.092
668.6907, 7240.479
670.6192, 7266.760
672.5477, 7296.922
674.4761, 7327.642
676.4046, 7355.262
678.3331, 7382.283
680.2615, 7411.293
682.1900, 7447.004
684.1185, 7485.287
686.0469, 7524.323
687.9754, 7561.252
689.9039, 7601.939
691.8323, 7659.261
693.7608, 7712.415
695.6893, 7753.495
697.6177, 7793.132
699.5462, 7846.387
701.4747, 7916.847
703.4031, 7982.374
705.3316, 8039.621
707.2601, 8085.801
709.1885, 8123.915
711.1170, 8147.888
713.0455, 8177.402
714.9739, 8212.935
716.9024, 8255.580
718.8309, 8306.008
720.7593, 8368.980
722.6878, 8425.948
724.6163, 8474.009
726.5447, 8512.990
728.4732, 8543.920
730.4017, 8563.053
732.3301, 8576.647
734.2586, 8588.007
736.1871, 8593.940
738.1155, 8583.849
740.0440, 8539.366
741.9725, 8517.129
743.9009, 8543.193
745.8294, 8599.695
747.7579, 8635.720
749.6863, 8634.760
751.6148, 8642.202
753.5433, 8673.919
755.4717, 8721.242
757.4002, 8768.535
759.3287, 8819.488
761.2571, 8862.878
763.1856, 8895.790
765.1141, 8918.497
767.0425, 8935.271
768.9710, 8946.692
770.8995, 8956.033
772.8279, 8966.008
774.7564, 8972.187
776.6849, 8970.450
778.6133, 8958.689
780.5418, 8943.193
782.4703, 8920.744
784.3987, 8891.624
786.3272, 8873.381
788.2557, 8868.753
790.1841, 8872.214
792.1126, 8887.198
794.0411, 8909.519
795.9695, 8920.136
797.8980, 8904.312
799.8265, 8887.696
801.7549, 8888.562
803.6834, 8915.080
805.6119, 8920.988
807.5403, 8890.604
809.4688, 8859.575
811.3973, 8852.537
813.3257, 8863.888
815.2542, 8861.879
817.1827, 8831.938
819.1111, 8798.481
821.0396, 8769.311
822.9681, 8753.484
824.8965, 8755.396
826.8250, 8784.128
828.7535, 8804.990
830.6819, 8805.150
832.6104, 8792.858
834.5389, 8778.707
836.4673, 8762.698
838.3958, 8748.044
840.3243, 8735.782
842.2527, 8719.614
844.1812, 8699.432
846.1097, 8675.607
848.0381, 8657.552
849.9666, 8645.188
851.8951, 8624.256
853.8235, 8615.992
855.7520, 8636.562
857.6805, 8655.493
859.6089, 8635.609
861.5374, 8603.534
863.4659, 8604.225
865.3943, 8648.656
867.3228, 8676.353
869.2513, 8666.815
871.1797, 8657.337
873.1082, 8674.339
875.0367, 8725.101
876.9651, 8766.086
878.8936, 8760.529
880.8221, 8751.306
882.7505, 8778.162
884.6790, 8847.973
886.6075, 8911.132
888.5359, 8958.785
890.4644, 9000.411
892.3929, 9040.645
894.3214, 9082.109
896.2498, 9133.785
898.1783, 9205.602
900.1068, 9274.946
902.0352, 9330.979
903.9637, 9381.243
905.8922, 9434.186
907.8206, 9484.369
909.7491, 9528.820
911.6776, 9583.919
913.6060, 9647.590
915.5345, 9705.165
917.4630, 9748.639
919.3914, 9791.749
921.3199, 9846.817
923.2484, 9913.149
925.1768, 9983.590
927.1053, 10058.13
929.0338, 10125.34
930.9622, 10175.67
932.8907, 10230.44
934.8192, 10309.79
936.7476, 10413.45
938.6761, 10506.66
940.6046, 10561.32
942.5330, 10604.63
944.4615, 10671.89
946.3900, 10778.46
948.3184, 10903.16
950.2469, 11016.47
952.1754, 11095.29
954.1038, 11153.78
956.0323, 11205.79
957.9608, 11260.55
959.8892, 11313.25
961.8177, 11377.16
963.7462, 11455.22
965.6746, 11530.08
967.6031, 11585.53
969.5316, 11622.21
971.4600, 11675.06
973.3885, 11719.90
975.3170, 11746.91
977.2454, 11768.77
979.1739, 11801.55
981.1024, 11830.12
983.0308, 11846.78
984.9593, 11872.01
986.8878, 11901.99
988.8162, 11923.79
990.7447, 11940.92
992.6732, 11962.53
994.6016, 11964.33
996.5301, 11962.37
998.4586, 11977.19
1000.387, 12008.12
1002.315, 12028.58
1004.244, 12052.03
1006.172, 12091.86
1008.101, 12137.39
1010.029, 12171.88
1011.958, 12166.66
1013.886, 12129.99
1015.815, 12107.73
1017.743, 12117.65
1019.672, 12161.59
1021.600, 12215.22
1023.529, 12268.76
1025.457, 12327.58
1027.386, 12384.15
1029.314, 12430.09
1031.243, 12464.75
1033.171, 12493.91
1035.099, 12524.11
1037.028, 12573.34
1038.956, 12646.54
1040.885, 12729.91
1042.813, 12809.24
1044.742, 12901.21
1046.670, 13006.12
1048.599, 13096.34
1050.527, 13180.45
1052.456, 13272.04
1054.384, 13379.25
1056.313, 13480.99
1058.241, 13588.32
1060.170, 13711.48
1062.098, 13846.45
1064.026, 13968.55
1065.955, 14072.47
1067.883, 14178.53
1069.812, 14282.19
1071.740, 14377.98
1073.669, 14469.30
1075.597, 14554.34
1077.526, 14649.49
1079.454, 14764.40
1081.383, 14909.09
1083.311, 15060.64
1085.240, 15201.28
1087.168, 15333.63
1089.097, 15488.55
1091.025, 15695.38
1092.953, 15919.27
1094.882, 16151.36
1096.810, 16371.32
1098.739, 16577.29
1100.667, 16791.09
1102.596, 17028.08
1104.524, 17298.59
1106.453, 17566.41
1108.381, 17809.98
1110.310, 18055.48
1112.238, 18317.49
1114.167, 18594.54
1116.095, 18884.06
1118.024, 19210.10
1119.952, 19509.40
1121.880, 19739.02
1123.809, 19892.79
1125.737, 20048.46
1127.666, 20219.32
1129.594, 20389.45
1131.523, 20556.72
1133.451, 20701.07
1135.380, 20809.86
1137.308, 20883.19
1139.237, 20963.88
1141.165, 21039.81
1143.094, 21129.60
1145.022, 21253.92
1146.951, 21416.51
1148.879, 21571.13
1150.807, 21739.84
1152.736, 21845.97
1154.664, 21860.51
1156.593, 21797.79
1158.521, 21698.69
1160.450, 21565.87
1162.378, 21404.65
1164.307, 21192.32
1166.235, 20972.17
1168.164, 20757.71
1170.092, 20553.29
1172.021, 20372.55
1173.949, 20223.50
1175.878, 20087.67
1177.806, 19965.59
1179.734, 19855.88
1181.663, 19759.16
1183.591, 19676.49
1185.520, 19601.21
1187.448, 19528.67
1189.377, 19465.64
1191.305, 19422.96
1193.234, 19398.59
1195.162, 19376.50
1197.091, 19343.08
1199.019, 19334.80
1200.948, 19374.94
1202.876, 19444.07
1204.805, 19505.85
1206.733, 19540.07
1208.661, 19615.16
1210.590, 19758.76
1212.518, 19924.77
1214.447, 20076.88
1216.375, 20205.84
1218.304, 20363.62
1220.232, 20575.23
1222.161, 20788.66
1224.089, 20975.31
1226.018, 21159.74
1227.946, 21382.50
1229.875, 21646.84
1231.803, 21907.29
1233.732, 22166.45
1235.660, 22411.30
1237.589, 22626.48
1239.517, 22810.79
1241.445, 22999.64
1243.374, 23217.36
1245.302, 23408.68
1247.231, 23547.55
1249.159, 23651.79
1251.088, 23754.58
1253.016, 23867.19
1254.945, 23988.35
1256.873, 24117.76
1258.802, 24248.10
1260.730, 24364.48
1262.659, 24485.75
1264.587, 24665.52
1266.516, 24924.26
1268.444, 25167.38
1270.372, 25348.86
1272.301, 25529.16
1274.229, 25757.02
1276.158, 26016.51
1278.086, 26275.21
1280.015, 26556.36
1281.943, 26806.03
1283.872, 26995.29
1285.800, 27122.25
1287.729, 27234.37
1289.657, 27371.63
1291.586, 27452.82
1293.514, 27447.32
1295.443, 27403.59
1297.371, 27352.93
1299.299, 27295.87
1301.228, 27226.86
1303.156, 27137.39
1305.085, 27048.07
1307.013, 26944.21
1308.942, 26855.66
1310.870, 26824.08
1312.799, 26835.02
1314.727, 26880.45
1316.656, 26987.83
1318.584, 27124.02
1320.513, 27281.15
1322.441, 27430.72
1324.370, 27540.88
1326.298, 27620.47
1328.226, 27765.02
1330.155, 28019.95
1332.083, 28282.50
1334.012, 28488.94
1335.940, 28657.55
1337.869, 28902.08
1339.797, 29257.59
1341.726, 29585.48
1343.654, 29829.04
1345.583, 30071.58
1347.511, 30410.50
1349.440, 30871.30
1351.368, 31284.99
1353.297, 31629.08
1355.225, 31986.35
1357.153, 32399.00
1359.082, 32809.75
1361.010, 33147.46
1362.939, 33412.18
1364.867, 33664.47
1366.796, 33936.85
1368.724, 34176.77
1370.653, 34347.18
1372.581, 34460.45
1374.510, 34551.98
1376.438, 34639.34
1378.367, 34683.63
1380.295, 34635.63
1382.224, 34552.30
1384.152, 34486.61
1386.080, 34447.56
1388.009, 34382.40
1389.937, 34235.60
1391.866, 34132.27
1393.794, 34120.99
1395.723, 34140.44
1397.651, 34145.65
1399.580, 34139.82
1401.508, 34116.30
1403.437, 34084.02
1405.365, 33992.28
1407.294, 33849.19
1409.222, 33678.09
1411.151, 33482.81
1413.079, 33247.43
1415.007, 33017.64
1416.936, 32781.63
1418.864, 32537.55
1420.793, 32292.92
1422.721, 32055.81
1424.650, 31826.03
1426.578, 31600.93
1428.507, 31421.94
1430.435, 31288.27
1432.364, 31189.20
1434.292, 31151.58
1436.221, 31157.80
1438.149, 31162.22
1440.078, 31153.86
1442.006, 31171.76
1443.934, 31249.52
1445.863, 31326.76
1447.791, 31373.88
1449.720, 31419.38
1451.648, 31490.99
1453.577, 31578.27
1455.505, 31646.24
1457.434, 31708.08
1459.362, 31798.48
1461.291, 31872.71
1463.219, 31945.86
1465.148, 32090.18
1467.076, 32349.95
1469.005, 32568.64
1470.933, 32695.44
1472.861, 32822.64
1474.790, 32965.16
1476.718, 33118.04
1478.647, 33282.72
1480.575, 33472.48
1482.504, 33645.05
1484.432, 33778.71
1486.361, 33911.39
1488.289, 34076.99
1490.218, 34257.91
1492.146, 34409.65
1494.075, 34515.96
1496.003, 34637.00
1497.932, 34796.74
1499.860, 34956.57
1501.788, 35088.19
1503.717, 35208.75
1505.645, 35350.43
1507.574, 35517.91
1509.502, 35698.86
1511.431, 35874.40
1513.359, 36083.51
1515.288, 36371.73
1517.216, 36679.46
1519.145, 36934.19
1521.073, 37154.30
1523.002, 37445.71
1524.930, 37829.65
1526.859, 38232.97
1528.787, 38676.83
1530.715, 39107.48
1532.644, 39448.48
1534.572, 39727.00
1536.501, 40058.88
1538.429, 40454.37
1540.358, 40893.20
1542.286, 41397.72
1544.215, 41916.62
1546.143, 42428.53
1548.072, 42934.15
1550.000, 43413.75
1551.929, 43856.81
1553.857, 44298.95
1555.786, 44719.11
1557.714, 45186.91
1559.642, 45748.42
1561.571, 46368.63
1563.499, 46970.31
1565.428, 47546.04
1567.356, 48153.86
1569.285, 48807.36
1571.213, 49482.57
1573.142, 50170.05
1575.070, 50874.26
1576.999, 51623.23
1578.927, 52421.78
1580.856, 53138.31
1582.784, 53732.45
1584.713, 54307.79
1586.641, 54916.72
1588.569, 55486.25
1590.498, 55969.33
1592.426, 56367.45
1594.355, 56694.79
1596.283, 57014.95
1598.212, 57113.57
1600.140, 56962.23
1602.069, 56610.06
1603.997, 56067.50
1605.926, 55338.93
1607.854, 54412.25
1609.783, 53226.93
1611.711, 52058.89
1613.640, 50924.25
1615.568, 49780.88
1617.496, 48551.85
1619.425, 47360.86
1621.353, 46331.72
1623.282, 45459.63
1625.210, 44654.75
1627.139, 43907.08
1629.067, 43246.30
1630.996, 42664.05
1632.924, 42182.44
1634.853, 41808.39
1636.781, 41547.54
1638.710, 41423.16
1640.638, 41471.85
1642.567, 41538.06
1644.495, 41675.04
1646.423, 41756.55
1648.352, 41782.23
1650.280, 41715.72
1652.209, 41515.05
1654.137, 41183.71
1656.066, 40797.13
1657.994, 40361.81
1659.923, 39856.85
1661.851, 39289.04
1663.780, 38644.05
1665.708, 37866.34
1667.637, 37028.34
1669.565, 36235.69
1671.494, 35483.76
1673.422, 34823.34
1675.350, 34263.55
1677.279, 33775.29
1679.207, 33373.76
1681.136, 33023.07
1683.064, 32693.68
1684.993, 32393.50
1686.921, 32157.74
1688.850, 32015.96
1690.778, 31868.46
1692.707, 31684.36
1694.635, 31536.02
1696.564, 31473.71
1698.492, 31436.73
1700.421, 31350.42
1702.349, 31222.44
1704.277, 31148.51
1706.206, 31173.55
1708.134, 31177.94
1710.063, 31165.45
1711.991, 31124.69
1713.920, 31016.58
1715.848, 30896.66
1717.777, 30853.85
1719.705, 30894.54
1721.634, 30897.37
1723.562, 30825.47
1725.491, 30774.28
1727.419, 30775.38
1729.348, 30772.71
1731.276, 30722.16
1733.204, 30654.73
1735.133, 30630.81
1737.061, 30660.41
1738.990, 30669.01
1740.918, 30652.24
1742.847, 30620.92
1744.775, 30536.41
1746.704, 30481.08
1748.632, 30543.21
1750.561, 30655.37
1752.489, 30664.46
1754.418, 30549.41
1756.346, 30473.50
1758.275, 30447.27
1760.203, 30450.28
1762.131, 30518.85
1764.060, 30571.70
1765.988, 30545.33
1767.917, 30474.44
1769.845, 30431.81
1771.774, 30418.84
1773.702, 30418.45
1775.631, 30436.08
1777.559, 30451.80
1779.488, 30476.43
1781.416, 30479.48
1783.345, 30411.55
1785.273, 30323.60
1787.202, 30333.87
1789.130, 30439.18
1791.058, 30470.15
1792.987, 30381.29
1794.915, 30313.57
1796.844, 30319.75
1798.772, 30339.01
1800.701, 30335.06
1802.629, 30322.53
1804.558, 30322.41
1806.486, 30333.27
1808.415, 30340.46
1810.343, 30340.63
1812.272, 30346.55
1814.200, 30367.46
1816.129, 30386.08
1818.057, 30377.80
1819.985, 30373.11
1821.914, 30420.27
1823.842, 30506.73
1825.771, 30567.29
1827.699, 30596.41
1829.628, 30616.40
1831.556, 30605.82
1833.485, 30620.56
1835.413, 30709.90
1837.342, 30806.68
1839.270, 30834.63
1841.199, 30819.96
1843.127, 30862.77
1845.056, 30998.65
1846.984, 31057.06
1848.912, 30959.43
1850.841, 30900.15
1852.769, 30934.81
1854.698, 30995.49
1856.626, 31047.27
1858.555, 31093.23
1860.483, 31132.20
1862.412, 31161.95
1864.340, 31230.43
1866.269, 31369.77
1868.197, 31480.05
1870.126, 31538.29
1872.054, 31583.26
1873.983, 31611.67
1875.911, 31647.14
1877.839, 31729.58
1879.768, 31840.26
1881.696, 31885.63
1883.625, 31855.47
1885.553, 31864.51
1887.482, 31937.78
1889.410, 32018.35
1891.339, 32107.15
1893.267, 32176.05
1895.196, 32204.56
1897.124, 32205.06
1899.053, 32177.52
1900.981, 32132.59
1902.910, 32130.63
1904.838, 32177.78
1906.766, 32251.70
1908.695, 32383.69
1910.623, 32482.32
1912.552, 32490.51
1914.480, 32477.50
1916.409, 32485.01
1918.337, 32512.95
1920.266, 32569.03
1922.194, 32655.68
1924.123, 32719.09
1926.051, 32736.12
1927.980, 32771.10
1929.908, 32839.95
1931.837, 32909.57
1933.765, 32978.49
1935.693, 33034.66
1937.622, 33062.20
1939.550, 33070.18
1941.479, 33074.62
1943.407, 33072.13
1945.336, 33116.07
1947.264, 33234.04
1949.193, 33319.17
1951.121, 33342.81
1953.050, 33345.50
1954.978, 33344.11
1956.907, 33328.66
1958.835, 33270.39
1960.764, 33200.05
1962.692, 33195.50
1964.620, 33251.13
1966.549, 33256.33
1968.477, 33182.13
1970.406, 33138.74
1972.334, 33150.35
1974.263, 33193.52
1976.191, 33300.96
1978.120, 33395.84
1980.048, 33381.12
1981.977, 33323.11
1983.905, 33372.21
1985.834, 33530.68
1987.762, 33629.53
1989.691, 33636.49
1991.619, 33650.35
1993.547, 33674.42
1995.476, 33704.84
1997.404, 33752.68
1999.333, 33793.42
2001.261, 33781.80
2003.190, 33773.75
2005.118, 33885.83
2007.047, 34078.02
2008.975, 34146.27
2010.904, 34077.69
2012.832, 34007.50
2014.761, 33940.25
2016.689, 33908.58
2018.618, 33938.49
2020.546, 33982.68
2022.474, 34026.15
2024.403, 34065.94
2026.331, 34091.00
2028.260, 34112.29
2030.188, 34160.11
2032.117, 34236.36
2034.045, 34306.12
2035.974, 34351.51
2037.902, 34424.43
2039.831, 34549.06
2041.759, 34666.97
2043.688, 34754.19
2045.616, 34843.49
2047.545, 34973.29
2049.473, 35100.53
2051.402, 35167.70
2053.330, 35188.26
2055.259, 35196.35
2057.187, 35193.50
2059.115, 35234.66
2061.044, 35338.77
2062.972, 35429.18
2064.901, 35499.77
2066.829, 35537.20
2068.758, 35492.25
2070.686, 35461.75
2072.615, 35534.29
2074.543, 35646.15
2076.472, 35710.89
2078.400, 35735.80
2080.329, 35758.56
2082.257, 35783.00
2084.186, 35781.94
2086.114, 35732.50
2088.042, 35721.31
2089.971, 35787.39
2091.899, 35843.46
2093.828, 35819.94
2095.756, 35826.11
2097.685, 35968.51
2099.613, 36150.63
2101.542, 36266.89
2103.470, 36329.78
2105.399, 36365.70
2107.327, 36373.87
2109.256, 36400.16
2111.184, 36452.64
2113.113, 36505.70
2115.041, 36537.61
2116.969, 36600.51
2118.898, 36749.32
2120.826, 36876.26
2122.755, 36926.59
2124.683, 36933.54
2126.612, 36900.24
2128.540, 36858.64
2130.469, 36894.65
2132.397, 36987.80
2134.326, 37011.19
2136.254, 36954.70
2138.183, 36936.18
2140.111, 36974.34
2142.040, 37034.32
2143.968, 37139.55
2145.896, 37220.95
2147.825, 37218.63
2149.753, 37229.61
2151.682, 37344.11
2153.610, 37483.16
2155.539, 37536.81
2157.467, 37543.37
2159.396, 37610.21
2161.324, 37734.53
2163.253, 37878.36
2165.181, 38047.42
2167.110, 38153.54
2169.038, 38152.01
2170.967, 38208.51
2172.895, 38410.94
2174.823, 38599.72
2176.752, 38712.52
2178.680, 38793.89
2180.609, 38853.17
2182.537, 38912.87
2184.466, 39012.62
2186.394, 39128.17
2188.323, 39189.78
2190.251, 39201.63
2192.180, 39251.68
2194.108, 39340.83
2196.037, 39464.07
2197.965, 39635.25
2199.894, 39775.42
2201.822, 39858.13
2203.750, 39930.50
2205.679, 39987.69
2207.607, 40066.30
2209.536, 40218.90
2211.464, 40366.84
2213.393, 40420.50
2215.321, 40437.05
2217.250, 40504.91
2219.178, 40615.07
2221.107, 40729.54
2223.035, 40848.56
2224.964, 40989.82
2226.892, 41158.92
2228.821, 41298.56
2230.749, 41392.51
2232.677, 41488.59
2234.606, 41597.11
2236.534, 41711.70
2238.463, 41857.02
2240.391, 41973.77
2242.320, 41995.00
2244.248, 42008.20
2246.177, 42102.11
2248.105, 42233.64
2250.034, 42345.52
2251.962, 42435.77
2253.891, 42485.56
2255.819, 42501.38
2257.748, 42535.05
2259.676, 42588.08
2261.604, 42678.74
2263.533, 42824.28
2265.461, 42959.11
2267.390, 43083.38
2269.318, 43178.13
2271.247, 43197.18
2273.175, 43243.51
2275.104, 43436.40
2277.032, 43582.33
2278.961, 43398.11
2280.889, 43236.82
2282.818, 43649.60
2284.746, 44249.18
2286.675, 44283.89
2288.603, 43915.75
2290.531, 43797.32
2292.460, 43936.39
2294.388, 43990.25
2296.317, 43889.45
2298.245, 43928.32
2300.174, 44192.39
2302.102, 44390.67
2304.031, 44476.00
2305.959, 44534.73
2307.888, 44578.48
2309.816, 44618.35
2311.745, 44640.98
2313.673, 44683.76
2315.602, 44779.96
2317.530, 44896.79
2319.458, 45004.65
2321.387, 45111.82
2323.315, 45218.56
2325.244, 45338.34
2327.172, 45544.66
2329.101, 45813.14
2331.029, 45915.93
2332.958, 45858.88
2334.886, 45918.35
2336.815, 46127.71
2338.743, 46328.90
2340.672, 46502.09
2342.600, 46667.26
2344.529, 46819.63
2346.457, 46976.11
2348.385, 47158.09
2350.314, 47318.67
2352.242, 47418.38
2354.171, 47521.02
2356.099, 47680.83
2358.028, 47832.96
2359.956, 47911.26
2361.885, 47966.57
2363.813, 48071.93
2365.742, 48192.03
2367.670, 48249.10
2369.599, 48260.73
2371.527, 48306.21
2373.456, 48382.81
2375.384, 48379.85
2377.313, 48295.30
2379.241, 48292.24
2381.169, 48384.36
2383.098, 48535.55
2385.026, 48773.50
2386.955, 48962.72
2388.883, 49039.46
2390.812, 49132.77
2392.740, 49280.43
2394.669, 49423.98
2396.597, 49554.97
2398.526, 49666.25
2400.454, 49760.10
2402.383, 49826.20
2404.311, 49825.15
2406.240, 49827.28
2408.168, 49916.25
2410.096, 50029.35
2412.025, 50085.21
2413.953, 50104.59
2415.882, 50131.67
2417.810, 50157.56
2419.739, 50145.47
2421.667, 50101.89
2423.596, 50048.36
2425.524, 49990.78
2427.453, 50027.10
2429.381, 50189.00
2431.310, 50220.48
2433.238, 50006.34
2435.167, 49902.79
2437.095, 49971.09
2439.023, 50000.19
2440.952, 49957.66
2442.880, 49900.09
2444.809, 49812.12
2446.737, 49775.01
2448.666, 49807.62
2450.594, 49913.53
2452.523, 50198.64
2454.451, 50419.10
2456.380, 50364.17
2458.308, 50284.61
2460.237, 50349.33
2462.165, 50483.13
2464.094, 50651.53
2466.022, 50821.01
2467.950, 50941.31
2469.879, 51045.33
2471.807, 51198.11
2473.736, 51373.04
2475.664, 51500.05
2477.593, 51591.15
2479.521, 51689.72
2481.450, 51799.08
2483.378, 51950.95
2485.307, 52140.30
2487.235, 52307.82
2489.164, 52453.63
2491.092, 52531.64
2493.021, 52490.06
2494.949, 52552.31
2496.877, 52745.15
2498.806, 52954.44
2500.734, 53173.29
2502.663, 53408.20
2504.591, 53676.54
2506.520, 53910.24
2508.448, 54070.00
2510.377, 54234.40
2512.305, 54427.95
2514.234, 54620.36
2516.162, 54812.75
2518.091, 54987.14
2520.019, 55140.45
2521.948, 55268.71
2523.876, 55334.03
2525.804, 55419.91
2527.733, 55641.60
2529.661, 55827.96
2531.590, 55804.08
2533.518, 55729.01
2535.447, 55719.72
2537.375, 55767.96
2539.304, 55907.96
2541.232, 56063.15
2543.161, 56155.68
2545.089, 56187.21
2547.018, 56112.95
2548.946, 56004.32
2550.875, 56027.57
2552.803, 56143.51
2554.731, 56234.12
2556.660, 56314.87
2558.588, 56457.15
2560.517, 56640.82
2562.445, 56766.74
2564.374, 56837.36
2566.302, 56879.31
2568.231, 56890.81
2570.159, 56955.99
2572.088, 57076.06
2574.016, 57130.52
2575.945, 57114.26
2577.873, 57080.88
2579.802, 57028.80
2581.730, 57006.40
2583.658, 57043.60
2585.587, 57028.60
2587.515, 56936.32
2589.444, 56900.26
2591.372, 56954.67
2593.301, 56927.51
2595.229, 56745.36
2597.158, 56648.54
2599.086, 56731.50
2601.015, 56816.71
2602.943, 56913.61
2604.872, 56955.28
2606.800, 56913.55
2608.729, 56864.31
2610.657, 56802.50
2612.585, 56793.88
2614.514, 56905.73
2616.442, 56998.87
2618.371, 56993.71
2620.299, 57030.46
2622.228, 57160.39
2624.156, 57314.96
2626.085, 57487.38
2628.013, 57649.30
2629.942, 57769.05
2631.870, 57902.73
2633.799, 58113.94
2635.727, 58290.54
2637.656, 58363.29
2639.584, 58406.05
2641.512, 58445.38
2643.441, 58477.52
2645.369, 58479.18
2647.298, 58501.04
2649.226, 58579.31
2651.155, 58683.35
2653.083, 58799.39
2655.012, 58926.32
2656.940, 59072.69
2658.869, 59216.68
2660.797, 59316.15
2662.726, 59438.01
2664.654, 59654.69
2666.583, 59894.00
2668.511, 60061.23
2670.439, 60260.38
2672.368, 60656.17
2674.296, 61036.35
2676.225, 61166.27
2678.153, 61257.09
2680.082, 61529.34
2682.010, 61840.34
2683.939, 62036.51
2685.867, 62209.21
2687.796, 62441.40
2689.724, 62703.26
2691.653, 62982.86
2693.581, 63261.15
2695.510, 63517.34
2697.438, 63763.36
2699.366, 64066.21
2701.295, 64312.85
2703.223, 64294.37
2705.152, 64246.20
2707.080, 64465.27
2709.009, 64723.88
2710.937, 64746.83
2712.866, 64691.38
2714.794, 64722.10
2716.723, 64786.54
2718.651, 64861.69
2720.580, 64905.42
2722.508, 64836.48
2724.437, 64751.45
2726.365, 64765.11
2728.293, 64810.04
2730.222, 64810.29
2732.150, 64806.21
2734.079, 64856.22
2736.007, 64899.48
2737.936, 64872.10
2739.864, 64811.28
2741.793, 64718.65
2743.721, 64651.44
2745.650, 64698.13
2747.578, 64759.75
2749.507, 64745.07
2751.435, 64716.15
2753.364, 64749.71
2755.292, 64767.71
2757.220, 64659.32
2759.149, 64558.99
2761.077, 64609.05
2763.006, 64655.90
2764.934, 64555.84
2766.863, 64448.00
2768.791, 64433.30
2770.720, 64450.97
2772.648, 64529.84
2774.577, 64529.43
2776.505, 64295.56
2778.434, 64063.01
2780.362, 63962.13
2782.291, 63920.98
2784.219, 63966.25
2786.147, 63959.28
2788.076, 63756.80
2790.004, 63634.32
2791.933, 63779.45
2793.861, 63949.70
2795.790, 64035.36
2797.718, 64136.52
2799.647, 64291.75
2801.575, 64466.51
2803.504, 64678.60
2805.432, 64844.98
2807.361, 64833.75
2809.289, 64946.17
2811.218, 65396.10
2813.146, 65725.05
2815.074, 65811.72
2817.003, 65922.48
2818.931, 66123.00
2820.860, 66347.59
2822.788, 66591.61
2824.717, 66850.11
2826.645, 67149.98
2828.574, 67348.58
2830.502, 67404.21
2832.431, 67501.38
2834.359, 67673.39
2836.288, 67879.30
2838.216, 68144.80
2840.145, 68292.94
2842.073, 68310.66
2844.001, 68390.50
2845.930, 68547.44
2847.858, 68819.05
2849.787, 69220.90
2851.715, 69457.12
2853.644, 69542.19
2855.572, 69668.66
2857.501, 69830.34
2859.429, 69964.37
2861.358, 70064.60
2863.286, 70061.31
2865.215, 70007.86
2867.143, 70156.80
2869.072, 70406.84
2871.000, 70512.69
2872.928, 70537.64
2874.857, 70627.16
2876.785, 70710.42
2878.714, 70668.09
2880.642, 70539.77
2882.571, 70371.94
2884.499, 70157.45
2886.428, 69849.06
2888.356, 69537.48
2890.285, 69331.64
2892.213, 69126.40
2894.142, 68853.68
2896.070, 68552.08
2897.999, 68206.57
2899.927, 67895.45
2901.855, 67657.74
2903.784, 67467.77
2905.712, 67338.57
2907.641, 67205.41
2909.569, 66990.08
2911.498, 66866.80
2913.426, 66903.64
2915.355, 66977.02
2917.283, 67080.41
2919.212, 67192.57
2921.140, 67319.47
2923.069, 67407.00
2924.997, 67412.65
2926.926, 67551.69
2928.854, 67831.65
2930.782, 67952.05
2932.711, 67902.08
2934.639, 67895.93
2936.568, 67930.51
2938.496, 67935.68
2940.425, 67902.88
2942.353, 67786.79
2944.282, 67603.49
2946.210, 67371.67
2948.139, 67122.95
2950.067, 66925.76
2951.996, 66745.01
2953.924, 66517.65
2955.853, 66295.75
2957.781, 66126.31
2959.709, 65992.38
2961.638, 65927.52
2963.566, 65824.28
2965.495, 65602.41
2967.423, 65371.00
2969.352, 65144.91
2971.280, 64986.95
2973.209, 64928.12
2975.137, 64940.71
2977.066, 65074.29
2978.994, 65064.35
2980.923, 64739.57
2982.851, 64638.17
2984.780, 64859.04
2986.708, 64977.06
2988.636, 64977.26
2990.565, 64885.14
2992.493, 64706.82
2994.422, 64554.70
2996.350, 64426.49
2998.279, 64320.24
3000.207, 64218.88
3002.136, 64075.82
3004.064, 63907.23
3005.993, 63742.25
3007.921, 63567.89
3009.850, 63366.20
3011.778, 63146.40
3013.707, 62915.86
3015.635, 62671.91
3017.563, 62382.71
3019.492, 62132.20
3021.420, 61972.24
3023.349, 61806.23
3025.277, 61571.16
3027.206, 61392.98
3029.134, 61316.73
3031.063, 61250.74
3032.991, 61192.29
3034.920, 61104.41
3036.848, 60976.88
3038.777, 60911.33
3040.705, 60905.41
3042.634, 60765.27
3044.562, 60545.29
3046.490, 60473.50
3048.419, 60472.50
3050.347, 60322.83
3052.276, 60168.46
3054.204, 60280.16
3056.133, 60438.93
3058.061, 60476.18
3059.990, 60438.49
3061.918, 60275.95
3063.847, 60187.54
3065.775, 60314.91
3067.704, 60362.27
3069.632, 60191.48
3071.561, 59991.97
3073.489, 59757.27
3075.417, 59626.62
3077.346, 59617.47
3079.274, 59576.98
3081.203, 59494.78
3083.131, 59371.33
3085.060, 59220.42
3086.988, 59149.26
3088.917, 59096.96
3090.845, 58882.70
3092.774, 58649.10
3094.702, 58618.28
3096.631, 58661.36
3098.559, 58687.12
3100.488, 58710.32
3102.416, 58715.13
3104.344, 58765.63
3106.273, 58907.72
3108.201, 59012.39
3110.130, 58993.11
3112.058, 59159.39
3113.987, 59629.29
3115.915, 59972.13
3117.844, 60188.25
3119.772, 60336.20
3121.701, 60455.61
3123.629, 60746.95
3125.558, 61144.10
3127.486, 61485.80
3129.415, 61815.50
3131.343, 62206.69
3133.271, 62587.52
3135.200, 62857.61
3137.128, 63156.41
3139.057, 63561.47
3140.985, 63975.80
3142.914, 64334.84
3144.842, 64777.36
3146.771, 65354.50
3148.699, 65770.80
3150.628, 65996.16
3152.556, 66344.64
3154.485, 66814.05
3156.413, 67336.95
3158.342, 67864.16
3160.270, 68267.53
3162.198, 68593.49
3164.127, 68876.13
3166.055, 69151.39
3167.984, 69459.62
3169.912, 69753.45
3171.841, 70058.41
3173.769, 70245.50
3175.698, 70238.05
3177.626, 70259.73
3179.555, 70354.89
3181.483, 70312.05
3183.412, 70111.57
3185.340, 69893.17
3187.269, 69650.31
3189.197, 69340.11
3191.125, 68988.60
3193.054, 68645.52
3194.982, 68282.02
3196.911, 67862.89
3198.839, 67414.95
3200.768, 66941.21
3202.696, 66461.45
3204.625, 65962.97
3206.553, 65516.39
3208.482, 65142.93
3210.410, 64728.71
3212.339, 64247.35
3214.267, 63997.97
3216.196, 63906.04
3218.124, 63561.12
3220.052, 63115.52
3221.981, 62865.23
3223.909, 62671.54
3225.838, 62380.79
3227.766, 62093.06
3229.695, 61889.87
3231.623, 61658.07
3233.552, 61340.64
3235.480, 61087.79
3237.409, 60944.09
3239.337, 60624.90
3241.266, 60118.73
3243.194, 59634.68
3245.123, 59165.85
3247.051, 58714.90
3248.979, 58237.08
3250.908, 57662.18
3252.836, 57033.69
3254.765, 56344.31
3256.693, 55695.53
3258.622, 55197.74
3260.550, 54615.45
3262.479, 53888.93
3264.407, 53242.33
3266.336, 52701.87
3268.264, 52225.63
3270.193, 51804.14
3272.121, 51401.70
3274.050, 51002.43
3275.978, 50547.96
3277.906, 50125.45
3279.835, 49802.45
3281.763, 49577.38
3283.692, 49512.50
3285.620, 49390.09
3287.549, 49130.98
3289.477, 48886.33
3291.406, 48662.96
3293.334, 48479.75
3295.263, 48325.17
3297.191, 48147.64
3299.120, 47965.85
3301.048, 47846.84
3302.977, 47687.34
3304.905, 47335.07
3306.833, 47036.53
3308.762, 46901.71
3310.690, 46747.66
3312.619, 46529.91
3314.547, 46280.54
3316.476, 46005.74
3318.404, 45833.11
3320.333, 45717.25
3322.261, 45539.19
3324.190, 45313.95
3326.118, 45002.70
3328.047, 44745.79
3329.975, 44694.94
3331.904, 44591.87
3333.832, 44356.39
3335.760, 44137.22
3337.689, 43953.47
3339.617, 43771.61
3341.546, 43608.30
3343.474, 43624.55
3345.403, 43690.29
3347.331, 43594.21
3349.260, 43450.66
3351.188, 43319.18
3353.117, 43240.07
3355.045, 43275.58
3356.974, 43227.04
3358.902, 43053.96
3360.831, 42886.69
3362.759, 42747.91
3364.688, 42776.13
3366.616, 42866.68
3368.544, 42812.46
3370.473, 42682.81
3372.401, 42469.66
3374.330, 42323.07
3376.258, 42331.63
3378.187, 42346.16
3380.115, 42348.95
3382.044, 42339.89
3383.972, 42313.83
3385.901, 42149.25
3387.829, 41962.86
3389.758, 41993.28
3391.686, 42067.75
3393.615, 42064.83
3395.543, 41983.83
3397.471, 41769.96
3399.400, 41634.33
3401.328, 41613.35
3403.257, 41579.39
3405.185, 41539.31
3407.114, 41577.93
3409.042, 41614.50
3410.971, 41452.85
3412.899, 41298.83
3414.828, 41328.29
3416.756, 41335.26
3418.685, 41242.61
3420.613, 41223.50
3422.542, 41298.77
3424.470, 41274.80
3426.398, 41177.44
3428.327, 41095.37
3430.255, 41034.07
3432.184, 41002.71
3434.112, 40994.10
3436.041, 41026.62
3437.969, 41007.63
3439.898, 40888.20
3441.826, 40836.65
3443.755, 40845.32
3445.683, 40809.56
3447.612, 40744.57
3449.540, 40649.95
3451.469, 40586.11
3453.397, 40613.84
3455.325, 40639.84
3457.254, 40626.16
3459.182, 40609.82
3461.111, 40592.93
3463.039, 40605.30
3464.968, 40627.59
3466.896, 40599.27
3468.825, 40551.23
3470.753, 40506.83
3472.682, 40469.00
3474.610, 40436.17
3476.539, 40420.37
3478.467, 40424.12
3480.396, 40423.14
3482.324, 40415.12
3484.252, 40385.91
3486.181, 40355.16
3488.109, 40346.80
3490.038, 40344.42
3491.966, 40325.24
3493.895, 40367.46
3495.823, 40525.58
3497.752, 40510.16
3499.680, 40355.51
3501.609, 40263.81
3503.537, 40213.05
3505.466, 40177.44
3507.394, 40170.16
3509.323, 40220.54
3511.251, 40221.99
3513.179, 40113.67
3515.108, 40139.98
3517.036, 40262.81
3518.965, 40294.30
3520.893, 40265.89
3522.822, 40211.45
3524.750, 40139.69
3526.679, 40001.88
3528.607, 39987.80
3530.536, 40142.63
3532.464, 40071.29
3534.393, 39837.24
3536.321, 39863.82
3538.250, 39976.17
3540.178, 39945.54
3542.106, 39912.52
3544.035, 39963.70
3545.963, 40004.96
3547.892, 40028.02
3549.820, 39934.02
3551.749, 39780.93
3553.677, 39825.27
3555.606, 39901.61
3557.534, 39808.51
3559.463, 39765.37
3561.391, 39887.07
3563.320, 39847.69
3565.248, 39594.43
3567.177, 39559.91
3569.105, 39658.47
3571.033, 39749.22
3572.962, 39754.89
3574.890, 39500.74
3576.819, 39368.41
3578.747, 39481.17
3580.676, 39486.68
3582.604, 39384.57
3584.533, 39428.73
3586.461, 39535.27
3588.390, 39639.79
3590.318, 39648.52
3592.247, 39475.06
3594.175, 39389.70
3596.104, 39473.99
3598.032, 39438.82
3599.960, 39343.31
3601.889, 39363.59
3603.817, 39414.91
3605.746, 39420.43
3607.674, 39422.98
3609.603, 39446.64
3611.531, 39436.41
3613.460, 39391.40
3615.388, 39281.07
3617.317, 39181.28
3619.245, 39259.81
3621.174, 39312.09
3623.102, 39208.93
3625.031, 39134.78
3626.959, 39111.60
3628.887, 39127.18
3630.816, 39165.94
3632.744, 39189.36
3634.673, 39218.36
3636.601, 39296.61
3638.530, 39308.77
3640.458, 39205.63
3642.387, 39110.92
3644.315, 39045.15
3646.244, 39089.14
3648.172, 39162.33
3650.101, 39173.55
3652.029, 39177.13
3653.958, 39191.23
3655.886, 39220.58
3657.814, 39257.17
3659.743, 39221.56
3661.671, 39165.93
3663.600, 39197.24
3665.528, 39209.98
3667.457, 39121.21
3669.385, 39080.77
3671.314, 39096.03
3673.242, 39073.02
3675.171, 39028.30
3677.099, 38967.07
3679.028, 38961.32
3680.956, 39136.16
3682.885, 39169.59
3684.813, 39024.04
3686.741, 39012.85
3688.670, 39085.12
3690.598, 39095.06
3692.527, 39088.03
3694.455, 39098.06
3696.384, 39091.10
3698.312, 39058.82
3700.241, 39090.24
3702.169, 39162.23
3704.098, 39244.61
3706.026, 39246.69
3707.955, 39002.40
3709.883, 38895.48
3711.812, 39003.54
3713.740, 39120.68
3715.668, 39205.46
3717.597, 39122.71
3719.525, 39023.05
3721.454, 39013.10
3723.382, 39057.39
3725.311, 39155.35
3727.239, 39210.12
3729.168, 39213.16
3731.096, 39094.63
3733.025, 39016.23
3734.953, 39154.04
3736.882, 39216.05
3738.810, 39135.71
3740.739, 39138.60
3742.667, 39198.86
3744.595, 39240.35
3746.524, 39251.47
3748.452, 39193.21
3750.381, 39201.37
3752.309, 39302.10
3754.238, 39354.39
3756.166, 39347.17
3758.095, 39194.13
3760.023, 39103.14
3761.952, 39258.67
3763.880, 39296.59
3765.809, 39175.01
3767.737, 39133.32
3769.666, 39154.15
3771.594, 39243.18
3773.522, 39294.83
3775.451, 39234.73
3777.379, 39214.53
3779.308, 39245.72
3781.236, 39322.70
3783.165, 39403.11
3785.093, 39436.63
3787.022, 39431.77
3788.950, 39364.85
3790.879, 39410.73
3792.807, 39534.98
3794.736, 39484.91
3796.664, 39397.52
3798.593, 39396.59
3800.521, 39446.04
3802.449, 39559.17
3804.378, 39589.22
3806.306, 39541.61
3808.235, 39407.25
3810.163, 39278.84
3812.092, 39195.61
3814.020, 39226.82
3815.949, 39391.32
3817.877, 39393.63
3819.806, 39349.00
3821.734, 39468.37
3823.663, 39546.64
3825.591, 39487.80
3827.520, 39505.07
3829.448, 39592.70
3831.376, 39568.60
3833.305, 39524.66
3835.233, 39556.20
3837.162, 39584.79
3839.090, 39594.87
3841.019, 39582.10
3842.947, 39567.75
3844.876, 39625.29
3846.804, 39672.82
3848.733, 39642.61
3850.661, 39641.71
3852.590, 39675.11
3854.518, 39721.73
3856.447, 39737.60
3858.375, 39728.70
3860.303, 39675.06
3862.232, 39552.30
3864.160, 39472.30
3866.089, 39457.25
3868.017, 39587.86
3869.946, 39683.32
3871.874, 39636.66
3873.803, 39605.43
3875.731, 39601.68
3877.660, 39673.93
3879.588, 39723.49
3881.517, 39532.17
3883.445, 39401.19
3885.374, 39480.18
3887.302, 39441.27
3889.230, 39331.29
3891.159, 39362.95
3893.087, 39426.01
3895.016, 39468.76
3896.944, 39439.05
3898.873, 39331.29
3900.801, 39218.49
3902.730, 39171.99
3904.658, 39274.68
3906.587, 39357.20
3908.515, 39371.38
3910.444, 39370.77
3912.372, 39374.81
3914.301, 39369.64
3916.229, 39348.89
3918.157, 39307.44
3920.086, 39240.37
3922.014, 39165.42
3923.943, 39191.35
3925.871, 39261.41
3927.800, 39356.93
3929.728, 39308.54
3931.657, 39158.72
3933.585, 39162.11
3935.514, 39196.02
3937.442, 39129.13
3939.371, 39106.36
3941.299, 39188.55
3943.228, 39102.51
3945.156, 38986.58
3947.084, 39118.09
3949.013, 39197.54
3950.941, 39114.02
3952.870, 39046.50
3954.798, 39012.84
3956.727, 39014.89
3958.655, 39027.78
3960.584, 39046.18
3962.512, 39045.28
3964.441, 39031.89
3966.369, 39072.23
3968.298, 39094.70
3970.226, 39025.62
3972.155, 38964.93
3974.083, 38929.98
3976.011, 39014.62
3977.940, 39092.21
3979.868, 38958.11
3981.797, 38877.74
3983.725, 38936.25
3985.654, 38957.33
3987.582, 38956.84
3989.511, 38885.94
3991.439, 38840.48
3993.368, 38881.00
3995.296, 38900.59
3997.225, 38882.69
3999.153, 38785.35
4001.082, 38756.62
4003.010, 38870.93
4004.938, 38847.05
4006.867, 38715.58
4008.795, 38694.29
4010.724, 38727.88
4012.652, 38758.37
4014.581, 38780.27
4016.509, 38806.05
4018.438, 38819.85
4020.366, 38762.71
4022.295, 38643.25
4024.223, 38675.62
4026.152, 38824.97
4028.080, 38900.21
4030.009, 38915.84
4031.937, 38824.85
4033.865, 38738.79
4035.794, 38768.04
4037.722, 38795.62
4039.651, 38734.86
4041.579, 38682.35
4043.508, 38660.11
4045.436, 38638.36
4047.365, 38666.87
4049.293, 38713.45
4051.222, 38683.50
4053.150, 38642.31
4055.079, 38631.31
4057.007, 38664.19
4058.936, 38646.04
4060.864, 38542.20
4062.792, 38536.64
4064.721, 38614.45
4066.649, 38564.60
4068.578, 38550.11
4070.506, 38615.14
4072.435, 38655.15
4074.363, 38672.89
4076.292, 38672.01
4078.220, 38661.14
4080.149, 38636.72
4082.077, 38686.55
4084.006, 38753.47
4085.934, 38729.22
4087.863, 38733.58
4089.791, 38731.13
4091.719, 38660.66
4093.648, 38605.18
4095.576, 38655.39
4097.505, 38685.50
4099.434, 38643.39
4101.362, 38621.35
4103.291, 38656.71
4105.219, 38657.53
4107.147, 38626.51
4109.076, 38601.05
4111.004, 38624.79
4112.933, 38702.68
4114.861, 38740.04
4116.790, 38603.34
4118.718, 38430.89
4120.646, 38508.12
4122.575, 38607.68
4124.503, 38532.60
4126.432, 38470.66
4128.360, 38539.56
4130.289, 38686.40
4132.217, 38723.64
4134.146, 38623.89
4136.074, 38523.88
4138.003, 38446.90
4139.931, 38519.43
4141.860, 38600.85
4143.788, 38616.47
4145.717, 38636.19
4147.645, 38610.26
4149.574, 38547.70
4151.502, 38505.62
4153.431, 38497.30
4155.359, 38552.33
4157.288, 38604.94
4159.216, 38574.95
4161.145, 38579.48
4163.073, 38657.67
4165.001, 38621.53
4166.930, 38521.80
4168.858, 38519.89
4170.787, 38539.91
4172.715, 38556.55
4174.644, 38609.29
4176.572, 38660.01
4178.500, 38637.84
4180.429, 38622.41
4182.357, 38631.93
4184.286, 38657.67
4186.214, 38685.58
4188.143, 38671.87
4190.071, 38647.39
4192.000, 38627.38
4193.928, 38538.49
4195.857, 38440.36
4197.785, 38470.12
4199.714, 38542.92
4201.642, 38654.87
4203.571, 38633.11
4205.499, 38544.92
4207.428, 38556.33
4209.356, 38617.76
4211.285, 38723.46
4213.213, 38711.65
4215.142, 38644.13
4217.070, 38583.27
4218.999, 38570.92
4220.927, 38634.59
4222.855, 38659.13
4224.784, 38671.63
4226.712, 38712.64
4228.641, 38720.31
4230.569, 38688.62
4232.498, 38708.67
4234.426, 38742.92
4236.354, 38754.41
4238.283, 38726.86
4240.211, 38667.25
4242.140, 38757.91
4244.068, 38856.37
4245.997, 38791.26
4247.925, 38795.74
4249.854, 38873.71
4251.782, 38811.82
4253.711, 38735.64
4255.639, 38757.61
4257.568, 38755.03
4259.496, 38747.57
4261.425, 38861.97
4263.353, 38984.08
4265.282, 39055.29
4267.210, 39087.51
4269.139, 39094.27
4271.067, 39105.01
4272.996, 39115.18
4274.924, 39116.02
4276.853, 39160.46
4278.781, 39220.07
4280.709, 39259.88
4282.638, 39261.68
4284.566, 39216.73
4286.495, 39194.77
4288.423, 39204.12
4290.352, 39275.80
4292.280, 39335.55
4294.208, 39371.11
4296.137, 39343.51
4298.065, 39322.37
4299.994, 39338.08
4301.922, 39508.49
4303.851, 39746.58
4305.779, 39671.24
4307.708, 39567.18
4309.636, 39550.93
4311.565, 39579.70
4313.493, 39638.58
4315.422, 39729.01
4317.350, 39778.50
4319.279, 39767.18
4321.207, 39793.03
4323.136, 39800.67
4325.064, 39700.39
4326.993, 39708.38
4328.921, 39821.39
4330.850, 39757.43
4332.778, 39727.46
4334.707, 39863.95
4336.635, 39963.65
4338.563, 40016.52
4340.492, 40018.80
4342.420, 40050.46
4344.349, 40132.78
4346.277, 40087.77
4348.206, 40018.74
4350.134, 40084.39
4352.063, 40082.40
4353.991, 40017.08
4355.919, 40140.32
4357.848, 40232.17
4359.776, 40094.74
4361.705, 40138.21
4363.633, 40290.02
4365.562, 40338.24
4367.490, 40304.25
4369.419, 40171.92
4371.347, 40319.59
4373.276, 40520.31
4375.204, 40482.99
4377.133, 40433.37
4379.061, 40403.41
4380.990, 40406.83
4382.918, 40417.71
4384.847, 40411.59
4386.775, 40490.18
4388.704, 40601.10
4390.632, 40642.45
4392.561, 40646.52
4394.489, 40625.07
4396.417, 40677.42
4398.346, 40749.52
4400.274, 40800.34
4402.203, 40877.40
4404.131, 40923.88
4406.060, 40625.36
4407.988, 40559.73
4409.917, 40916.39
4411.845, 40878.57
4413.773, 40702.40
4415.702, 40685.11
4417.630, 40779.73
4419.559, 40947.13
4421.487, 41064.23
4423.416, 41107.41
4425.344, 41024.30
4427.273, 41019.65
4429.201, 41092.67
4431.130, 41319.72
4433.058, 41362.25
4434.987, 41198.37
4436.915, 41135.64
4438.844, 41154.56
4440.772, 41254.63
4442.701, 41335.15
4444.629, 41376.13
4446.558, 41318.97
4448.486, 41334.64
4450.415, 41433.07
4452.343, 41492.84
4454.271, 41474.71
4456.200, 41293.18
4458.128, 41323.68
4460.057, 41457.38
4461.985, 41485.80
4463.914, 41478.95
4465.842, 41453.64
4467.771, 41423.77
4469.699, 41456.61
4471.627, 41612.69
4473.556, 41665.85
4475.484, 41650.03
4477.413, 41645.82
4479.341, 41561.09
4481.270, 41430.01
4483.198, 41563.80
4485.127, 41712.59
4487.055, 41723.86
4488.984, 41786.32
4490.912, 41855.35
4492.841, 41848.71
4494.769, 41822.59
4496.698, 41796.83
4498.626, 41841.29
4500.555, 41918.15
4502.483, 42016.93
4504.412, 42046.14
4506.340, 42009.89
4508.269, 41876.22
4510.197, 41852.71
4512.125, 41925.31
4514.054, 41965.12
4515.982, 42059.49
4517.911, 42245.35
4519.839, 42259.93
4521.768, 42215.73
4523.696, 42184.50
4525.625, 42277.81
4527.553, 42394.23
4529.481, 42282.13
4531.410, 42159.18
4533.338, 42089.47
4535.267, 42213.68
4537.195, 42346.53
4539.124, 42391.65
4541.052, 42383.07
4542.981, 42358.34
4544.909, 42352.90
4546.838, 42383.68
4548.766, 42443.99
4550.695, 42530.09
4552.623, 42549.89
4554.552, 42483.07
4556.480, 42494.41
4558.409, 42563.80
4560.337, 42696.30
4562.266, 42670.14
4564.194, 42583.30
4566.123, 42619.27
4568.051, 42666.67
4569.979, 42707.70
4571.908, 42740.91
4573.836, 42803.98
4575.765, 42910.10
4577.693, 42856.90
4579.622, 42744.15
4581.550, 42625.60
4583.479, 42686.29
4585.407, 42835.65
4587.335, 42911.53
4589.264, 42936.18
4591.192, 42928.48
4593.121, 42969.19
4595.049, 43005.56
4596.978, 43019.46
4598.906, 43041.25
4600.835, 43094.13
4602.763, 43217.98
4604.692, 43170.76
4606.620, 43051.50
4608.549, 43017.70
4610.477, 43090.50
4612.406, 43213.62
4614.334, 43091.14
4616.263, 43108.76
4618.191, 43343.53
4620.120, 43325.96
4622.048, 43225.09
4623.977, 43120.57
4625.905, 43337.80
4627.833, 43590.97
4629.762, 43468.63
4631.690, 43389.09
4633.619, 43389.50
4635.547, 43511.27
4637.476, 43554.91
4639.404, 43515.10
4641.333, 43577.54
4643.261, 43593.66
4645.189, 43483.64
4647.118, 43646.66
4649.046, 43778.73
4650.975, 43633.53
4652.903, 43597.89
4654.832, 43629.92
4656.760, 43642.73
4658.689, 43703.70
4660.617, 43807.81
4662.546, 43984.80
4664.474, 43971.36
4666.403, 43774.95
4668.331, 43870.54
4670.260, 44006.43
4672.188, 44088.33
4674.117, 44049.71
4676.045, 44027.73
4677.974, 44148.13
4679.902, 44142.36
4681.831, 44117.72
4683.759, 44209.22
4685.688, 44299.48
4687.616, 44313.16
4689.544, 44014.45
4691.473, 44012.82
4693.401, 44269.81
4695.330, 44355.73
4697.258, 44295.63
4699.187, 44125.66
4701.115, 44257.77
4703.043, 44377.96
4704.972, 44363.13
4706.900, 44329.94
4708.829, 44307.41
4710.757, 44301.36
4712.686, 44395.20
4714.614, 44493.70
4716.543, 44477.77
4718.471, 44617.66
4720.400, 44779.92
4722.328, 44665.42
4724.257, 44641.42
4726.185, 44700.43
4728.114, 44675.52
4730.042, 44646.84
4731.971, 44630.03
4733.899, 44603.01
4735.828, 44605.54
4737.756, 44656.77
4739.685, 44891.38
4741.613, 44986.26
4743.542, 44783.54
4745.470, 44778.44
4747.398, 44856.98
4749.327, 44943.05
4751.255, 44995.76
4753.184, 44993.76
4755.112, 44887.90
4757.041, 44880.94
4758.969, 44943.07
4760.897, 45052.84
4762.826, 45036.53
4764.754, 44950.90
4766.683, 44901.45
4768.611, 44999.08
4770.540, 45176.81
4772.468, 45184.51
4774.397, 45225.02
4776.325, 45300.27
4778.254, 45255.43
4780.182, 45164.24
4782.111, 45066.02
4784.039, 45148.09
4785.968, 45202.13
4787.896, 45175.52
4789.825, 45269.45
4791.753, 45379.45
4793.682, 45456.26
4795.610, 45439.60
4797.539, 45382.32
4799.467, 45313.03
4801.396, 45310.71
4803.324, 45335.73
4805.252, 45351.48
4807.181, 45406.56
4809.109, 45441.70
4811.038, 45390.32
4812.966, 45452.29
4814.895, 45561.07
4816.823, 45652.08
4818.751, 45592.94
4820.680, 45472.65
4822.608, 45400.24
4824.537, 45473.22
4826.465, 45606.69
4828.394, 45675.63
4830.322, 45600.81
4832.251, 45469.63
4834.179, 45471.21
4836.108, 45516.25
4838.036, 45566.55
4839.965, 45552.01
4841.893, 45607.86
4843.822, 45698.95
4845.750, 45622.72
4847.679, 45616.40
4849.607, 45682.45
4851.536, 45683.84
4853.464, 45628.69
4855.393, 45565.33
4857.321, 45733.54
4859.250, 45818.91
4861.178, 45782.71
4863.106, 45805.48
4865.035, 45840.17
4866.963, 45864.52
4868.892, 45802.15
4870.820, 45793.21
4872.749, 45848.39
4874.677, 45733.50
4876.605, 45732.89
4878.534, 45879.76
4880.462, 45877.65
4882.391, 45860.83
4884.319, 45875.39
4886.248, 45930.42
4888.176, 45971.32
4890.105, 45991.21
4892.033, 46083.22
4893.962, 46061.65
4895.890, 45902.54
4897.819, 46036.12
4899.747, 46094.54
4901.676, 45993.34
4903.604, 45848.81
4905.533, 45850.31
4907.461, 46023.85
4909.390, 46020.33
4911.318, 46086.24
4913.247, 46252.59
4915.175, 46214.46
4917.104, 46211.18
4919.032, 46281.81
4920.960, 46152.74
4922.889, 46118.16
4924.817, 46230.51
4926.746, 46320.29
4928.674, 46278.84
4930.603, 46169.02
4932.531, 46453.80
4934.459, 46479.39
4936.388, 46224.40
4938.316, 46365.94
4940.245, 46420.77
4942.173, 46342.55
4944.102, 46307.83
4946.030, 46336.34
4947.959, 46418.70
4949.887, 46540.90
4951.816, 46640.98
4953.744, 46661.37
4955.673, 46418.03
4957.601, 46354.09
4959.530, 46445.86
4961.458, 46547.05
4963.387, 46582.08
4965.315, 46576.85
4967.244, 46588.47
4969.172, 46600.48
4971.101, 46618.85
4973.029, 46670.88
4974.958, 46664.80
4976.886, 46634.84
4978.814, 46626.43
4980.743, 46598.19
4982.671, 46621.23
4984.600, 46785.87
4986.528, 46693.88
4988.457, 46583.51
4990.385, 46708.77
4992.313, 46663.09
4994.242, 46676.38
4996.170, 46876.23
4998.099, 46944.40
5000.027, 46935.96
5001.956, 46888.71
5003.884, 46847.31
5005.813, 46839.58
5007.741, 46873.05
5009.670, 46898.41
5011.598, 47003.20
5013.527, 47164.42
5015.455, 47178.02
5017.384, 47143.33
5019.312, 47103.11
5021.241, 47108.77
5023.169, 47137.30
5025.098, 47160.64
5027.026, 47122.67
5028.955, 47090.59
5030.883, 47076.20
5032.812, 47095.06
5034.740, 47062.10
5036.668, 47069.06
5038.597, 47228.68
5040.525, 47235.75
5042.454, 47223.51
5044.382, 47318.19
5046.311, 47300.77
5048.239, 47256.27
5050.167, 47234.83
5052.096, 47214.87
5054.024, 47204.69
5055.953, 47218.22
5057.881, 47337.55
5059.810, 47432.11
5061.738, 47452.55
5063.667, 47292.53
5065.595, 47302.41
5067.524, 47432.05
5069.452, 47441.53
5071.381, 47492.29
5073.309, 47550.86
5075.238, 47552.14
5077.166, 47463.29
5079.095, 47401.89
5081.023, 47469.72
5082.952, 47546.13
5084.880, 47578.98
5086.809, 47546.57
5088.737, 47489.88
5090.666, 47399.80
5092.594, 47310.61
5094.522, 47557.84
5096.451, 47590.78
5098.379, 47434.46
5100.308, 47527.40
5102.236, 47583.07
5104.165, 47590.43
5106.093, 47591.96
5108.021, 47620.62
5109.950, 47623.42
5111.878, 47545.39
5113.807, 47541.22
5115.735, 47509.02
5117.664, 47415.14
5119.592, 47615.77
5121.521, 47615.82
5123.449, 47365.55
5125.378, 47589.04
5127.306, 47751.72
5129.235, 47776.03
5131.163, 47725.63
5133.092, 47765.20
5135.020, 47811.09
5136.949, 47725.68
5138.877, 47708.90
5140.806, 47708.51
5142.734, 47681.98
5144.663, 47802.41
5146.591, 47859.24
5148.520, 47814.69
5150.448, 47885.45
5152.376, 47872.30
5154.305, 47811.68
5156.233, 47909.32
5158.162, 47967.54
5160.090, 47955.92
5162.019, 47852.92
5163.947, 48051.89
5165.875, 48209.83
5167.804, 48117.85
5169.732, 48081.58
5171.661, 48126.24
5173.589, 48206.05
5175.518, 48058.07
5177.446, 48012.33
5179.375, 48063.07
5181.303, 48107.05
5183.232, 48038.68
5185.160, 47982.98
5187.089, 48063.80
5189.017, 48085.87
5190.946, 48109.37
5192.874, 48153.49
5194.803, 48092.78
5196.731, 48194.16
5198.660, 48384.98
5200.588, 48341.12
5202.517, 48427.11
5204.445, 48544.62
5206.374, 48563.77
5208.302, 48442.10
5210.230, 48372.57
5212.159, 48421.37
5214.087, 48268.60
5216.016, 48296.22
5217.944, 48445.84
5219.873, 48301.14
5221.801, 48353.28
5223.729, 48494.65
5225.658, 48563.95
5227.586, 48538.82
5229.515, 48507.41
5231.443, 48507.19
5233.372, 48481.73
5235.300, 48491.50
5237.229, 48523.36
5239.157, 48498.93
5241.086, 48523.16
5243.014, 48645.14
5244.943, 48928.53
5246.871, 48703.59
5248.800, 48525.20
5250.728, 48578.09
5252.657, 48567.98
5254.585, 48535.96
5256.514, 48538.68
5258.442, 48702.84
5260.371, 48672.09
5262.299, 48628.15
5264.228, 48705.10
5266.156, 48611.93
5268.084, 48658.21
5270.013, 48799.75
5271.941, 48547.95
5273.870, 48540.37
5275.798, 48657.55
5277.727, 48679.89
5279.655, 48701.00
5281.583, 48676.05
5283.512, 48591.65
5285.440, 48422.11
5287.369, 48593.55
5289.297, 48872.32
5291.226, 48735.24
5293.154, 48625.96
5295.083, 48599.46
5297.011, 48666.69
5298.940, 48697.13
5300.868, 48714.75
5302.797, 48746.16
5304.725, 48860.19
5306.654, 48768.25
5308.582, 48633.32
5310.511, 48619.25
5312.439, 48807.20
5314.368, 48887.85
5316.296, 48809.37
5318.225, 48741.09
5320.153, 48786.96
5322.082, 48831.83
5324.010, 48752.90
5325.938, 48705.36
5327.867, 48792.11
5329.795, 48950.66
5331.724, 48783.73
5333.652, 48695.17
5335.581, 48694.80
5337.509, 48722.49
5339.438, 48828.53
5341.366, 48811.67
5343.294, 48681.25
5345.223, 48864.87
5347.151, 48902.61
5349.080, 48842.62
5351.008, 48818.07
5352.937, 48951.03
5354.865, 48937.24
5356.794, 48718.01
5358.722, 48618.67
5360.651, 48679.13
5362.579, 48744.49
5364.508, 48646.19
5366.436, 48809.20
5368.365, 48931.00
5370.293, 48902.19
5372.222, 48804.82
5374.150, 48675.09
5376.079, 48597.44
5378.007, 48672.12
5379.936, 48598.30
5381.864, 48620.89
5383.792, 48739.07
5385.721, 48719.89
5387.649, 48570.23
5389.578, 48507.59
5391.506, 48679.75
5393.435, 48692.43
5395.363, 48567.32
5397.292, 48452.95
5399.220, 48743.96
5401.148, 48562.98
5403.077, 48421.82
5405.005, 48632.31
5406.934, 48727.82
5408.862, 48752.89
5410.791, 48724.93
5412.719, 48641.24
5414.648, 48702.22
5416.576, 48739.92
5418.505, 48685.90
5420.433, 48591.50
5422.362, 48641.52
5424.290, 48705.30
5426.219, 48634.57
5428.147, 48627.33
5430.076, 48598.24
5432.004, 48512.86
5433.933, 48318.95
5435.861, 48455.85
5437.790, 48591.95
5439.718, 48511.43
5441.646, 48346.07
5443.575, 48468.33
5445.503, 48647.68
5447.432, 48492.45
5449.360, 48306.44
5451.289, 48342.34
5453.217, 48504.87
5455.146, 48245.55
5457.074, 48350.13
5459.002, 48489.14
5460.931, 48390.63
5462.859, 48348.37
5464.788, 48333.63
5466.716, 48346.43
5468.645, 48420.70
5470.573, 48248.80
5472.502, 48284.60
5474.430, 48494.64
5476.359, 48284.52
5478.287, 48188.92
5480.216, 48156.26
5482.144, 48126.70
5484.073, 48322.58
5486.001, 48301.72
5487.930, 48166.45
5489.858, 48161.00
5491.787, 48100.85
5493.715, 48038.70
5495.644, 48031.09
5497.572, 48190.09
5499.500, 47953.82
5501.429, 47962.08
5503.357, 48385.98
5505.286, 48336.64
5507.214, 48117.15
5509.143, 48001.10
5511.071, 48157.33
5513.000, 48007.18
5514.928, 47974.43
5516.856, 48066.95
5518.785, 48149.26
5520.713, 48090.80
5522.642, 47932.51
5524.570, 47757.70
5526.499, 47701.59
5528.427, 47848.30
5530.356, 47936.83
5532.284, 47859.02
5534.213, 47731.93
5536.141, 47928.64
5538.070, 48042.65
5539.998, 47744.79
5541.927, 47842.32
5543.855, 47847.87
5545.784, 47840.48
5547.712, 48047.38
5549.641, 47948.57
5551.569, 47807.83
5553.498, 47749.92
5555.426, 47842.14
5557.354, 47695.14
5559.283, 47629.59
5561.211, 47704.82
5563.140, 47687.32
5565.068, 47724.31
5566.997, 47650.01
5568.925, 47444.12
5570.854, 47455.68
5572.782, 47462.19
5574.710, 47505.16
5576.639, 47593.11
5578.567, 47354.35
5580.496, 47380.44
5582.424, 47453.16
5584.353, 47319.43
5586.281, 47316.08
5588.210, 47390.29
5590.138, 47401.22
5592.067, 47221.42
5593.995, 47356.29
5595.924, 47300.43
5597.852, 47142.82
5599.781, 47276.32
5601.709, 47106.57
5603.638, 46996.60
5605.566, 47010.10
5607.495, 47044.92
5609.423, 47138.95
5611.352, 47197.82
5613.280, 47174.61
5615.208, 47042.39
5617.137, 47016.17
5619.065, 47027.47
5620.994, 47008.74
5622.922, 46818.41
5624.851, 47068.39
5626.779, 47141.96
5628.708, 46889.95
5630.636, 46788.91
5632.564, 46894.74
5634.493, 46862.36
5636.421, 46631.55
5638.350, 46549.81
5640.278, 46591.29
5642.207, 46667.23
5644.135, 46695.00
5646.064, 46546.46
5647.992, 46551.20
5649.921, 46435.93
5651.849, 46174.58
5653.778, 46358.62
5655.706, 46427.80
5657.635, 46476.85
5659.563, 46555.89
5661.492, 46494.62
5663.420, 46364.80
5665.349, 46415.94
5667.277, 46612.73
5669.206, 46253.88
5671.134, 46339.45
5673.063, 46366.21
5674.991, 46152.32
5676.919, 46246.07
5678.848, 46259.98
5680.776, 46204.09
5682.705, 46134.98
5684.633, 46115.33
5686.562, 46184.37
5688.490, 46155.22
5690.418, 46029.72
5692.347, 46125.36
5694.275, 45993.21
5696.204, 45924.68
5698.132, 45983.26
5700.061, 46000.08
5701.989, 45794.97
5703.918, 45741.07
5705.846, 45826.26
5707.775, 45741.54
5709.703, 45672.29
5711.632, 45761.61
5713.560, 45830.02
5715.489, 45564.15
5717.417, 45647.95
5719.346, 45663.70
5721.274, 45580.86
5723.203, 45533.44
5725.131, 45632.83
5727.060, 45489.77
5728.988, 45315.37
5730.917, 45398.98
5732.845, 45536.16
5734.773, 45524.45
5736.702, 45490.22
5738.630, 45534.94
5740.559, 45353.01
5742.487, 45194.54
5744.416, 45144.58
5746.344, 45187.35
5748.272, 45159.88
5750.201, 45100.27
5752.129, 45103.57
5754.058, 45137.64
5755.986, 45018.17
5757.915, 44985.23
5759.843, 44957.18
5761.772, 44859.27
5763.700, 44645.17
5765.629, 44882.01
5767.557, 44982.09
5769.486, 44859.67
5771.414, 44644.33
5773.343, 44550.74
5775.271, 44526.82
5777.200, 44510.58
5779.128, 44473.93
5781.057, 44527.31
5782.985, 44427.23
5784.914, 44364.96
5786.842, 44430.95
5788.771, 44542.47
5790.699, 44432.62
5792.627, 44325.73
5794.556, 44273.96
5796.484, 44196.23
5798.413, 44284.64
5800.341, 44360.38
5802.270, 44425.79
5804.198, 44499.81
5806.126, 44182.75
5808.055, 44116.53
5809.983, 44086.36
5811.912, 43953.55
5813.840, 44084.85
5815.769, 44146.95
5817.697, 44133.58
5819.626, 44033.24
5821.554, 43772.99
5823.483, 43813.91
5825.411, 43910.41
5827.340, 43869.30
5829.268, 43592.32
5831.197, 43600.61
5833.125, 43503.48
5835.054, 43530.16
5836.982, 43719.60
5838.911, 43484.79
5840.839, 43406.43
5842.768, 43405.68
5844.696, 43402.89
5846.625, 43357.81
5848.553, 43282.40
5850.481, 43442.85
5852.410, 43450.64
5854.338, 43066.55
5856.267, 43058.24
5858.195, 43134.77
5860.124, 43137.92
5862.052, 43095.51
5863.980, 43168.98
5865.909, 42999.05
5867.837, 43056.74
5869.766, 43080.22
5871.694, 42787.48
5873.623, 42963.63
5875.551, 42765.70
5877.480, 42671.96
5879.408, 42814.35
5881.337, 42691.95
5883.265, 42670.59
5885.194, 42618.48
5887.122, 42511.58
5889.051, 42387.39
5890.979, 42429.14
5892.908, 42404.16
5894.836, 42257.03
5896.765, 42103.37
5898.693, 42300.75
5900.622, 42212.45
5902.550, 42175.21
5904.479, 42185.16
5906.407, 42145.12
5908.335, 42165.57
5910.264, 42053.46
5912.192, 42103.36
5914.121, 42230.89
5916.049, 42012.09
5917.978, 41913.45
5919.906, 41984.76
5921.834, 41983.05
5923.763, 41775.51
5925.691, 41646.23
5927.620, 41806.44
5929.548, 41802.16
5931.477, 41635.62
5933.405, 41555.45
5935.334, 41715.74
5937.262, 41559.78
5939.191, 41446.95
5941.119, 41494.41
5943.048, 41328.18
5944.976, 41530.15
5946.905, 41432.68
5948.833, 41210.93
5950.762, 41135.31
5952.690, 40880.88
5954.619, 41068.39
5956.547, 40981.63
5958.476, 40728.45
5960.404, 40841.12
5962.333, 40834.49
5964.261, 40840.99
5966.189, 40902.46
5968.118, 40934.87
5970.046, 40713.95
5971.975, 40915.29
5973.903, 40710.84
5975.832, 40429.30
5977.760, 40429.14
5979.688, 40504.40
5981.617, 40477.45
5983.545, 40524.96
5985.474, 40513.80
5987.402, 40305.21
5989.331, 40448.14
5991.259, 40316.84
5993.188, 40160.99
5995.116, 40077.56
5997.045, 40012.45
5998.973, 39975.25
6000.902, 40086.45
6002.830, 40099.61
6004.759, 39946.07
6006.687, 39714.81
6008.616, 39869.00
6010.544, 39988.71
6012.473, 39796.23
6014.401, 39437.03
6016.330, 39493.63
6018.258, 39648.45
6020.187, 39598.11
6022.115, 39533.00
6024.043, 39541.88
6025.972, 39339.83
6027.900, 39285.61
6029.829, 39378.87
6031.757, 39461.61
6033.686, 39399.44
6035.614, 39117.14
6037.542, 39052.52
6039.471, 38991.97
6041.399, 38946.57
6043.328, 38964.72
6045.256, 38974.79
6047.185, 38880.40
6049.113, 38727.07
6051.042, 38664.29
6052.970, 38738.67
6054.899, 38668.10
6056.827, 38595.23
6058.756, 38608.32
6060.684, 38637.45
6062.613, 38607.86
6064.541, 38564.30
6066.470, 38345.94
6068.398, 38323.62
6070.327, 38313.17
6072.255, 38154.18
6074.184, 38208.70
6076.112, 38244.05
6078.041, 38082.29
6079.969, 37930.75
6081.897, 37956.45
6083.826, 38043.24
6085.754, 37868.19
6087.683, 37796.63
6089.611, 37803.25
6091.540, 37756.07
6093.468, 37565.51
6095.396, 37491.27
6097.325, 37482.89
6099.253, 37466.49
6101.182, 37454.70
6103.110, 37544.62
6105.039, 37495.01
6106.967, 37364.64
6108.896, 37250.61
6110.824, 37120.29
6112.753, 36870.50
6114.681, 36885.37
6116.610, 36930.57
6118.538, 36841.92
6120.467, 36781.51
6122.395, 36968.10
6124.324, 36867.68
6126.252, 36711.61
6128.181, 36660.91
6130.109, 36648.54
6132.038, 36579.99
6133.966, 36538.94
6135.895, 36483.29
6137.823, 36339.94
6139.751, 36269.42
6141.680, 36313.46
6143.608, 36258.31
6145.537, 36088.28
6147.465, 35928.12
6149.394, 36016.81
6151.322, 36175.54
6153.250, 35958.60
6155.179, 36062.35
6157.107, 35885.37
6159.036, 35792.89
6160.964, 35740.25
6162.893, 35561.84
6164.821, 35620.27
6166.750, 35482.28
6168.678, 35373.68
6170.607, 35330.60
6172.535, 35307.62
6174.464, 35257.67
6176.392, 35291.96
6178.321, 35248.07
6180.249, 35173.50
6182.178, 35095.35
6184.106, 35013.94
6186.035, 35049.18
6187.963, 35023.09
6189.892, 35001.05
6191.820, 34904.89
6193.749, 34731.37
6195.677, 34671.21
6197.605, 34443.65
6199.534, 34402.91
6201.462, 34385.87
6203.391, 34407.97
6205.319, 34540.62
6207.248, 34320.72
6209.176, 34175.40
6211.104, 34216.62
6213.033, 34115.44
6214.961, 33887.07
6216.890, 34013.21
6218.818, 33992.62
6220.747, 34067.32
6222.675, 34021.52
6224.604, 33853.47
6226.532, 33711.44
6228.461, 33711.13
6230.389, 33672.11
6232.318, 33508.74
6234.246, 33547.24
6236.175, 33678.95
6238.103, 33505.51
6240.032, 33269.81
6241.960, 33258.45
6243.889, 33346.14
6245.817, 33325.19
6247.746, 33176.60
6249.674, 33094.07
6251.603, 32965.23
6253.531, 32935.15
6255.459, 32922.84
6257.388, 32935.57
6259.316, 32965.84
6261.245, 32854.15
6263.173, 32711.27
6265.102, 32661.40
6267.030, 32615.80
6268.958, 32536.68
6270.887, 32436.59
6272.815, 32264.71
6274.744, 32363.09
6276.672, 32348.88
6278.601, 32300.94
6280.529, 32244.73
6282.458, 32122.25
6284.386, 32041.19
6286.315, 31987.33
6288.243, 31969.63
6290.172, 31992.14
6292.100, 31933.49
6294.029, 31713.41
6295.957, 31694.20
6297.886, 31616.58
6299.814, 31666.57
6301.743, 31660.55
6303.671, 31555.44
6305.600, 31467.07
6307.528, 31311.44
6309.457, 31425.53
6311.385, 31329.90
6313.313, 31226.49
6315.242, 31245.42
6317.170, 31258.39
6319.099, 31034.70
6321.027, 31004.93
6322.956, 30953.17
6324.884, 30941.37
6326.813, 30942.72
6328.741, 30861.18
6330.669, 30792.43
6332.598, 30493.01
6334.526, 30574.90
6336.455, 30698.15
6338.383, 30623.54
6340.312, 30454.71
6342.240, 30608.20
6344.169, 30388.51
6346.097, 30291.60
6348.026, 30194.03
6349.954, 30121.69
6351.883, 30130.95
6353.811, 30117.66
6355.740, 30026.39
6357.668, 30018.34
6359.597, 29920.24
6361.525, 29773.22
6363.454, 29744.20
6365.382, 29893.46
6367.311, 29723.15
6369.239, 29644.03
6371.167, 29650.00
6373.096, 29691.99
6375.024, 29637.80
6376.953, 29434.69
6378.881, 29429.99
6380.810, 29408.18
6382.738, 29322.39
6384.667, 29309.17
6386.595, 29335.55
6388.523, 29309.97
6390.452, 29205.61
6392.380, 29088.65
6394.309, 28972.98
6396.237, 28994.89
6398.166, 28966.39
6400.094, 28891.31
6402.023, 28889.10
6403.951, 28796.25
6405.880, 28586.63
6407.808, 28661.94
6409.737, 28492.70
6411.665, 28405.67
6413.594, 28588.52
6415.522, 28555.19
6417.451, 28376.61
6419.379, 28390.08
6421.308, 28312.46
6423.236, 28157.50
6425.165, 28032.62
6427.093, 28003.02
6429.021, 28098.31
6430.950, 27915.92
6432.878, 27880.49
6434.807, 27843.95
6436.735, 27871.64
6438.664, 27914.19
6440.592, 27815.94
6442.521, 27602.98
6444.449, 27643.90
6446.377, 27596.87
6448.306, 27581.60
6450.234, 27533.66
6452.163, 27442.69
6454.091, 27409.54
6456.020, 27369.19
6457.948, 27218.29
6459.877, 27125.26
6461.805, 27220.24
6463.734, 27250.92
6465.662, 27113.91
6467.591, 26977.66
6469.519, 26860.72
6471.448, 26767.47
6473.376, 26862.62
6475.305, 26810.43
6477.233, 26704.83
6479.162, 26671.75
6481.090, 26644.50
6483.019, 26622.52
6484.947, 26632.98
6486.875, 26530.81
6488.804, 26613.17
6490.732, 26566.43
6492.661, 26368.36
6494.589, 26343.92
6496.518, 26366.72
6498.446, 26275.31
6500.375, 26245.00
6502.303, 26252.62
6504.231, 26214.33
6506.160, 26127.98
6508.088, 26044.02
6510.017, 25985.97
6511.945, 26092.89
6513.874, 25924.38
6515.802, 25920.22
6517.731, 25840.13
6519.659, 25748.66
6521.588, 25792.30
6523.516, 25800.80
6525.445, 25537.13
6527.373, 25511.70
6529.302, 25523.62
6531.230, 25572.24
6533.159, 25473.53
6535.087, 25332.11
6537.016, 25386.92
6538.944, 25406.50
6540.873, 25431.92
6542.801, 25257.25
6544.729, 25325.32
6546.658, 25303.18
6548.586, 25159.67
6550.515, 25109.88
6552.443, 25186.09
6554.372, 25009.77
6556.300, 24966.03
6558.229, 24829.71
6560.157, 24872.41
6562.085, 24921.10
6564.014, 24873.14
6565.942, 24789.02